Winding Currents under Load 
Air-Gap Position (elec. degrees)
Current (A)
0	22.5373
1	22.8055
2	23.072
3	23.3376
4	23.6027
5	23.8673
6	24.1314
7	24.3955
8	24.6581
9	24.9183
10	25.1747
11	25.4257
12	25.6695
13	25.9041
14	26.1275
15	26.3381
16	26.5344
17	26.7158
18	26.8812
19	27.0316
20	27.1671
21	27.2875
22	27.393
23	27.4833
24	27.5574
25	27.6165
26	27.6616
27	27.6939
28	27.7152
29	27.7275
30	27.7327
31	27.7324
32	27.728
33	27.7209
34	27.7116
35	27.7016
36	27.6899
37	27.6766
38	27.6613
39	27.6434
40	27.6221
41	27.5964
42	27.5657
43	27.528
44	27.4816
45	27.4245
46	27.3567
47	27.2776
48	27.1869
49	27.0845
50	26.9706
51	26.845
52	26.7076
53	26.5584
54	26.3972
55	26.2243
56	26.0404
57	25.8454
58	25.6415
59	25.4309
60	25.214
61	24.992
62	24.766
63	24.5367
64	24.3046
65	24.0702
66	23.8336
67	23.5957
68	23.3556
69	23.1128
70	22.8667
71	22.6164
72	22.3611
73	22.0996
74	21.831
75	21.5543
76	21.2688
77	20.974
78	20.6691
79	20.3549
80	20.0312
81	19.6981
82	19.3553
83	19.0028
84	18.6397
85	18.2667
86	17.8843
87	17.4931
88	17.0939
89	16.6877
90	16.2755
91	15.8582
92	15.4365
93	15.011
94	14.5824
95	14.1514
96	13.7178
97	13.2818
98	12.8437
99	12.4034
100	11.9612
101	11.5172
102	11.0716
103	10.6242
104	10.1749
105	9.72331
106	9.26975
107	8.81418
108	8.35652
109	7.8967
110	7.43465
111	6.97029
112	6.50356
113	6.03438
114	5.5627
115	5.08844
116	4.61157
117	4.13184
118	3.64946
119	3.1646
120	2.6771
121	2.18703
122	1.69446
123	1.19954
124	0.702441
125	0.203388
126	-0.297317
127	-0.799248
128	-1.30199
129	-1.80498
130	-2.30753
131	-2.80883
132	-3.30798
133	-3.80403
134	-4.29607
135	-4.7833
136	-5.26517
137	-5.74135
138	-6.21166
139	-6.6763
140	-7.13539
141	-7.58903
142	-8.03724
143	-8.48004
144	-8.91727
145	-9.34937
146	-9.77683
147	-10.2004
148	-10.6209
149	-11.0394
150	-11.4567
151	-11.8738
152	-12.2912
153	-12.7094
154	-13.1288
155	-13.5497
156	-13.9716
157	-14.3943
158	-14.8172
159	-15.2395
160	-15.6605
161	-16.0788
162	-16.4937
163	-16.9033
164	-17.3063
165	-17.7008
166	-18.0866
167	-18.463
168	-18.8299
169	-19.1874
170	-19.5355
171	-19.8743
172	-20.2037
173	-20.5236
174	-20.8341
175	-21.1355
176	-21.4284
177	-21.7132
178	-21.9917
179	-22.2659
180	-22.5365
181	-22.8046
182	-23.0711
183	-23.3367
184	-23.6018
185	-23.8665
186	-24.1306
187	-24.3946
188	-24.6572
189	-24.9174
190	-25.1738
191	-25.4249
192	-25.6687
193	-25.9033
194	-26.1267
195	-26.3372
196	-26.5336
197	-26.7149
198	-26.8804
199	-27.0308
200	-27.1662
201	-27.2867
202	-27.3921
203	-27.4824
204	-27.5566
205	-27.6157
206	-27.6607
207	-27.693
208	-27.7144
209	-27.7267
210	-27.7318
211	-27.7315
212	-27.7272
213	-27.72
214	-27.7108
215	-27.7007
216	-27.6891
217	-27.6757
218	-27.6604
219	-27.6426
220	-27.6213
221	-27.5956
222	-27.5649
223	-27.5271
224	-27.4808
225	-27.4237
226	-27.3559
227	-27.2768
228	-27.186
229	-27.0837
230	-26.9698
231	-26.8442
232	-26.7068
233	-26.5576
234	-26.3964
235	-26.2235
236	-26.0396
237	-25.8446
238	-25.6407
239	-25.4301
240	-25.2132
241	-24.9912
242	-24.7652
243	-24.5358
244	-24.3038
245	-24.0694
246	-23.8328
247	-23.5949
248	-23.3548
249	-23.112
250	-22.8658
251	-22.6156
252	-22.3603
253	-22.0988
254	-21.8302
255	-21.5535
256	-21.2679
257	-20.9731
258	-20.6683
259	-20.354
260	-20.0304
261	-19.6972
262	-19.3545
263	-19.0019
264	-18.6388
265	-18.2659
266	-17.8834
267	-17.4922
268	-17.093
269	-16.6869
270	-16.2747
271	-15.8573
272	-15.4356
273	-15.0102
274	-14.5816
275	-14.1506
276	-13.717
277	-13.281
278	-12.8428
279	-12.4026
280	-11.9604
281	-11.5163
282	-11.0708
283	-10.6233
284	-10.174
285	-9.72245
286	-9.26889
287	-8.81332
288	-8.35566
289	-7.89584
290	-7.43379
291	-6.96943
292	-6.5027
293	-6.03353
294	-5.56184
295	-5.08758
296	-4.61071
297	-4.13099
298	-3.6486
299	-3.16374
300	-2.67625
301	-2.18617
302	-1.69361
303	-1.19869
304	-0.701587
305	-0.202535
306	0.29817
307	0.8001
308	1.30284
309	1.80583
310	2.30838
311	2.80968
312	3.30883
313	3.80488
314	4.29691
315	4.78415
316	5.26601
317	5.74219
318	6.2125
319	6.67714
320	7.13623
321	7.58986
322	8.03807
323	8.48087
324	8.9181
325	9.3502
326	9.77766
327	10.2012
328	10.6217
329	11.0402
330	11.4575
331	11.8746
332	12.292
333	12.7102
334	13.1296
335	13.5505
336	13.9724
337	14.3951
338	14.818
339	15.2403
340	15.6613
341	16.0796
342	16.4945
343	16.9041
344	17.3071
345	17.7016
346	18.0873
347	18.4638
348	18.8307
349	19.1882
350	19.5363
351	19.8751
352	20.2045
353	20.5244
354	20.8349
355	21.1363
356	21.4292
357	21.714
358	21.9924
359	22.2667
360	22.5373
Phase Current ia
0	-25.2136
1	-24.9912
2	-24.7651
3	-24.5358
4	-24.3038
5	-24.0694
6	-23.8328
7	-23.5949
8	-23.3547
9	-23.1119
10	-22.8658
11	-22.6156
12	-22.3602
13	-22.0988
14	-21.8302
15	-21.5534
16	-21.2679
17	-20.9731
18	-20.6682
19	-20.354
20	-20.0304
21	-19.6972
22	-19.3545
23	-19.0019
24	-18.6388
25	-18.2659
26	-17.8835
27	-17.4922
28	-17.093
29	-16.6869
30	-16.2747
31	-15.8573
32	-15.4356
33	-15.0102
34	-14.5816
35	-14.1506
36	-13.717
37	-13.281
38	-12.8429
39	-12.4026
40	-11.9604
41	-11.5164
42	-11.0708
43	-10.6234
44	-10.1741
45	-9.72251
46	-9.26896
47	-8.81338
48	-8.35573
49	-7.89591
50	-7.43386
51	-6.96951
52	-6.50278
53	-6.03361
54	-5.56192
55	-5.08767
56	-4.6108
57	-4.13107
58	-3.6487
59	-3.16384
60	-2.67634
61	-2.18627
62	-1.69371
63	-1.19879
64	-0.701693
65	-0.202643
66	0.298059
67	0.799987
68	1.30273
69	1.80572
70	2.30826
71	2.80956
72	3.30871
73	3.80475
74	4.29679
75	4.78402
76	5.26588
77	5.74206
78	6.21236
79	6.677
80	7.13609
81	7.58973
82	8.03793
83	8.48073
84	8.91796
85	9.35006
86	9.77752
87	10.2011
88	10.6216
89	11.04
90	11.4574
91	11.8744
92	12.2918
93	12.7101
94	13.1295
95	13.5504
96	13.9723
97	14.3949
98	14.8178
99	15.2402
100	15.6611
101	16.0795
102	16.4944
103	16.904
104	17.3069
105	17.7014
106	18.0872
107	18.4636
108	18.8306
109	19.1881
110	19.5362
111	19.8749
112	20.2043
113	20.5242
114	20.8347
115	21.1361
116	21.429
117	21.7138
118	21.9923
119	22.2665
120	22.5371
121	22.8052
122	23.0717
123	23.3373
124	23.6024
125	23.867
126	24.1312
127	24.3952
128	24.6578
129	24.918
130	25.1744
131	25.4254
132	25.6693
133	25.9039
134	26.1273
135	26.3378
136	26.5341
137	26.7155
138	26.8809
139	27.0313
140	27.1668
141	27.2873
142	27.3927
143	27.483
144	27.5571
145	27.6163
146	27.6613
147	27.6936
148	27.7149
149	27.7272
150	27.7324
151	27.7321
152	27.7278
153	27.7206
154	27.7114
155	27.7013
156	27.6896
157	27.6763
158	27.661
159	27.6431
160	27.6218
161	27.5961
162	27.5655
163	27.5277
164	27.4813
165	27.4242
166	27.3564
167	27.2773
168	27.1866
169	27.0842
170	26.9703
171	26.8447
172	26.7073
173	26.5581
174	26.3969
175	26.2241
176	26.0401
177	25.8451
178	25.6412
179	25.4306
180	25.2137
181	24.9917
182	24.7657
183	24.5364
184	24.3043
185	24.0699
186	23.8333
187	23.5954
188	23.3553
189	23.1125
190	22.8663
191	22.6161
192	22.3608
193	22.0993
194	21.8307
195	21.554
196	21.2684
197	20.9736
198	20.6688
199	20.3545
200	20.0309
201	19.6977
202	19.355
203	19.0024
204	18.6393
205	18.2664
206	17.8839
207	17.4927
208	17.0935
209	16.6873
210	16.2751
211	15.8578
212	15.4361
213	15.0107
214	14.5821
215	14.1511
216	13.7175
217	13.2815
218	12.8433
219	12.4031
220	11.9609
221	11.5168
222	11.0712
223	10.6238
224	10.1745
225	9.72291
226	9.26935
227	8.81378
228	8.35612
229	7.8963
230	7.43424
231	6.96989
232	6.50315
233	6.03397
234	5.56228
235	5.08803
236	4.61115
237	4.13142
238	3.64904
239	3.16418
240	2.67668
241	2.1866
242	1.69404
243	1.19912
244	0.702012
245	0.202958
246	-0.297748
247	-0.79968
248	-1.30243
249	-1.80542
250	-2.30797
251	-2.80927
252	-3.30842
253	-3.80447
254	-4.29651
255	-4.78375
256	-5.26561
257	-5.74179
258	-6.2121
259	-6.67674
260	-7.13584
261	-7.58947
262	-8.03768
263	-8.48048
264	-8.91772
265	-9.34982
266	-9.77728
267	-10.2008
268	-10.6214
269	-11.0398
270	-11.4572
271	-11.8742
272	-12.2916
273	-12.7099
274	-13.1292
275	-13.5502
276	-13.9721
277	-14.3947
278	-14.8176
279	-15.24
280	-15.6609
281	-16.0793
282	-16.4942
283	-16.9038
284	-17.3067
285	-17.7012
286	-18.087
287	-18.4634
288	-18.8304
289	-19.1879
290	-19.536
291	-19.8747
292	-20.2041
293	-20.524
294	-20.8346
295	-21.1359
296	-21.4289
297	-21.7136
298	-21.9921
299	-22.2663
300	-22.5369
301	-22.805
302	-23.0716
303	-23.3372
304	-23.6022
305	-23.8669
306	-24.131
307	-24.395
308	-24.6576
309	-24.9178
310	-25.1742
311	-25.4253
312	-25.6691
313	-25.9037
314	-26.1271
315	-26.3376
316	-26.534
317	-26.7153
318	-26.8808
319	-27.0312
320	-27.1666
321	-27.2871
322	-27.3926
323	-27.4828
324	-27.557
325	-27.6161
326	-27.6611
327	-27.6935
328	-27.7148
329	-27.7271
330	-27.7322
331	-27.7319
332	-27.7276
333	-27.7205
334	-27.7112
335	-27.7012
336	-27.6895
337	-27.6761
338	-27.6608
339	-27.643
340	-27.6217
341	-27.596
342	-27.5653
343	-27.5275
344	-27.4812
345	-27.4241
346	-27.3563
347	-27.2772
348	-27.1865
349	-27.0841
350	-26.9702
351	-26.8446
352	-26.7072
353	-26.558
354	-26.3968
355	-26.2239
356	-26.04
357	-25.845
358	-25.6411
359	-25.4305
360	-25.2136
Phase Current ib
0	2.67632
1	2.18567
2	1.6931
3	1.19819
4	0.701087
5	0.202037
6	-0.298666
7	-0.800593
8	-1.30334
9	-1.80632
10	-2.30887
11	-2.81017
12	-3.30931
13	-3.80536
14	-4.29739
15	-4.78462
16	-5.26649
17	-5.74266
18	-6.21297
19	-6.6776
20	-7.1367
21	-7.59033
22	-8.03853
23	-8.48133
24	-8.91856
25	-9.35066
26	-9.77811
27	-10.2017
28	-10.6222
29	-11.0406
30	-11.458
31	-11.875
32	-12.2924
33	-12.7107
34	-13.13
35	-13.5509
36	-13.9729
37	-14.3955
38	-14.8184
39	-15.2408
40	-15.6617
41	-16.08
42	-16.4949
43	-16.9046
44	-17.3075
45	-17.702
46	-18.0878
47	-18.4642
48	-18.8311
49	-19.1886
50	-19.5367
51	-19.8755
52	-20.2049
53	-20.5248
54	-20.8353
55	-21.1367
56	-21.4296
57	-21.7144
58	-21.9928
59	-22.2671
60	-22.5377
61	-22.8058
62	-23.0723
63	-23.3379
64	-23.6029
65	-23.8676
66	-24.1317
67	-24.3957
68	-24.6583
69	-24.9185
70	-25.1749
71	-25.426
72	-25.6698
73	-25.9044
74	-26.1278
75	-26.3383
76	-26.5346
77	-26.716
78	-26.8815
79	-27.0319
80	-27.1673
81	-27.2878
82	-27.3932
83	-27.4835
84	-27.5576
85	-27.6168
86	-27.6618
87	-27.6941
88	-27.7155
89	-27.7278
90	-27.7329
91	-27.7326
92	-27.7283
93	-27.7211
94	-27.7119
95	-27.7018
96	-27.6901
97	-27.6768
98	-27.6615
99	-27.6436
100	-27.6224
101	-27.5966
102	-27.566
103	-27.5282
104	-27.4818
105	-27.4247
106	-27.3569
107	-27.2778
108	-27.1871
109	-27.0847
110	-26.9708
111	-26.8452
112	-26.7079
113	-26.5586
114	-26.3974
115	-26.2246
116	-26.0406
117	-25.8456
118	-25.6417
119	-25.4311
120	-25.2142
121	-24.9922
122	-24.7662
123	-24.5369
124	-24.3048
125	-24.0704
126	-23.8338
127	-23.5959
128	-23.3558
129	-23.113
130	-22.8669
131	-22.6166
132	-22.3613
133	-22.0998
134	-21.8312
135	-21.5545
136	-21.269
137	-20.9741
138	-20.6693
139	-20.355
140	-20.0314
141	-19.6982
142	-19.3555
143	-19.0029
144	-18.6398
145	-18.2669
146	-17.8845
147	-17.4932
148	-17.094
149	-16.6879
150	-16.2757
151	-15.8583
152	-15.4366
153	-15.0112
154	-14.5826
155	-14.1516
156	-13.718
157	-13.282
158	-12.8438
159	-12.4036
160	-11.9614
161	-11.5173
162	-11.0717
163	-10.6243
164	-10.175
165	-9.72343
166	-9.26987
167	-8.81429
168	-8.35663
169	-7.89681
170	-7.43476
171	-6.9704
172	-6.50367
173	-6.03449
174	-5.5628
175	-5.08854
176	-4.61166
177	-4.13194
178	-3.64955
179	-3.16469
180	-2.67719
181	-2.18711
182	-1.69455
183	-1.19962
184	-0.70252
185	-0.203466
186	0.297242
187	0.799174
188	1.30192
189	1.80491
190	2.30746
191	2.80877
192	3.30792
193	3.80397
194	4.29601
195	4.78325
196	5.26511
197	5.74129
198	6.2116
199	6.67625
200	7.13534
201	7.58898
202	8.03719
203	8.47999
204	8.91723
205	9.34933
206	9.77679
207	10.2003
208	10.6209
209	11.0393
210	11.4567
211	11.8737
212	12.2911
213	12.7094
214	13.1288
215	13.5497
216	13.9716
217	14.3943
218	14.8171
219	15.2395
220	15.6604
221	16.0788
222	16.4937
223	16.9033
224	17.3063
225	17.7008
226	18.0865
227	18.463
228	18.8299
229	19.1874
230	19.5355
231	19.8743
232	20.2037
233	20.5236
234	20.8341
235	21.1355
236	21.4284
237	21.7132
238	21.9917
239	22.2659
240	22.5365
241	22.8046
242	23.0711
243	23.3367
244	23.6018
245	23.8664
246	24.1306
247	24.3946
248	24.6572
249	24.9174
250	25.1738
251	25.4249
252	25.6687
253	25.9033
254	26.1267
255	26.3372
256	26.5335
257	26.7149
258	26.8804
259	27.0308
260	27.1662
261	27.2867
262	27.3921
263	27.4824
264	27.5566
265	27.6157
266	27.6607
267	27.693
268	27.7144
269	27.7267
270	27.7318
271	27.7315
272	27.7272
273	27.72
274	27.7108
275	27.7007
276	27.6891
277	27.6757
278	27.6604
279	27.6426
280	27.6213
281	27.5956
282	27.5649
283	27.5271
284	27.4808
285	27.4237
286	27.3559
287	27.2768
288	27.186
289	27.0837
290	26.9698
291	26.8442
292	26.7068
293	26.5576
294	26.3964
295	26.2235
296	26.0396
297	25.8446
298	25.6407
299	25.4301
300	25.2132
301	24.9912
302	24.7652
303	24.5358
304	24.3038
305	24.0694
306	23.8328
307	23.5949
308	23.3548
309	23.112
310	22.8659
311	22.6156
312	22.3603
313	22.0988
314	21.8302
315	21.5535
316	21.268
317	20.9731
318	20.6683
319	20.3541
320	20.0304
321	19.6973
322	19.3545
323	19.002
324	18.6389
325	18.2659
326	17.8835
327	17.4922
328	17.0931
329	16.6869
330	16.2747
331	15.8573
332	15.4356
333	15.0102
334	14.5816
335	14.1506
336	13.717
337	13.281
338	12.8429
339	12.4026
340	11.9604
341	11.5164
342	11.0708
343	10.6234
344	10.1741
345	9.72251
346	9.26895
347	8.81338
348	8.35572
349	7.8959
350	7.43385
351	6.9695
352	6.50277
353	6.03359
354	5.56191
355	5.08765
356	4.61078
357	4.13106
358	3.64868
359	3.16382
360	2.67632
Phase Current ic
