Winding Currents under Load 
Air-Gap Position (elec. degrees)
Current (A)
0	30.0298
1	30.3296
2	30.6212
3	30.9068
4	31.1874
5	31.4639
6	31.7369
7	32.0068
8	32.2736
9	32.5372
10	32.7982
11	33.0551
12	33.3068
13	33.552
14	33.789
15	34.016
16	34.2309
17	34.4319
18	34.6173
19	34.7859
20	34.937
21	35.0696
22	35.1849
23	35.2829
24	35.3635
25	35.4268
26	35.4726
27	35.4996
28	35.5094
29	35.5029
30	35.4816
31	35.4472
32	35.4017
33	35.347
34	35.2847
35	35.2163
36	35.1428
37	35.065
38	34.9842
39	34.8995
40	34.8107
41	34.7177
42	34.6197
43	34.5159
44	34.4053
45	34.2876
46	34.1605
47	34.0226
48	33.8717
49	33.708
50	33.531
51	33.3406
52	33.1368
53	32.9195
54	32.6889
55	32.4448
56	32.187
57	31.9157
58	31.6311
59	31.334
60	31.0243
61	30.7043
62	30.3763
63	30.0407
64	29.6987
65	29.3513
66	28.9992
67	28.6429
68	28.283
69	27.9195
70	27.5534
71	27.1837
72	26.8101
73	26.4318
74	26.0481
75	25.6581
76	25.2608
77	24.8551
78	24.4403
79	24.0158
80	23.581
81	23.1355
82	22.6799
83	22.2142
84	21.7384
85	21.2524
86	20.7561
87	20.2487
88	19.7311
89	19.2037
90	18.6672
91	18.1226
92	17.571
93	17.0131
94	16.4501
95	15.8825
96	15.3112
97	14.7367
98	14.1596
99	13.58
100	12.9979
101	12.4138
102	11.8276
103	11.2396
104	10.6499
105	10.0589
106	9.46628
107	8.87205
108	8.27593
109	7.67823
110	7.07896
111	6.47808
112	5.87558
113	5.27142
114	4.66559
115	4.05806
116	3.44882
117	2.83783
118	2.2251
119	1.61062
120	0.994319
121	0.376328
122	-0.243245
123	-0.864398
124	-1.48703
125	-2.111
126	-2.73614
127	-3.36223
128	-3.989
129	-4.61609
130	-5.24321
131	-5.86978
132	-6.49518
133	-7.11866
134	-7.73937
135	-8.35636
136	-8.96864
137	-9.57527
138	-10.1755
139	-10.7686
140	-11.3544
141	-11.9326
142	-12.5035
143	-13.0672
144	-13.6237
145	-14.1729
146	-14.715
147	-15.2495
148	-15.7769
149	-16.2978
150	-16.8129
151	-17.3231
152	-17.8293
153	-18.3324
154	-18.8332
155	-19.3323
156	-19.8301
157	-20.3269
158	-20.8232
159	-21.3181
160	-21.8114
161	-22.3025
162	-22.7906
163	-23.2748
164	-23.754
165	-24.2273
166	-24.6928
167	-25.1491
168	-25.5943
169	-26.0283
170	-26.4506
171	-26.8611
172	-27.2598
173	-27.6467
174	-28.0219
175	-28.3853
176	-28.7368
177	-29.0764
178	-29.4046
179	-29.7219
180	-30.0285
181	-30.3265
182	-30.6181
183	-30.9037
184	-31.1843
185	-31.4608
186	-31.7338
187	-32.0037
188	-32.2705
189	-32.5341
190	-32.7952
191	-33.0521
192	-33.3038
193	-33.549
194	-33.786
195	-34.013
196	-34.228
197	-34.4289
198	-34.6143
199	-34.7829
200	-34.934
201	-35.0667
202	-35.182
203	-35.2799
204	-35.3606
205	-35.4239
206	-35.4696
207	-35.4967
208	-35.5065
209	-35.5
210	-35.4787
211	-35.4443
212	-35.3988
213	-35.3441
214	-35.2819
215	-35.2134
216	-35.14
217	-35.0622
218	-34.9814
219	-34.8967
220	-34.8079
221	-34.7148
222	-34.6169
223	-34.5131
224	-34.4025
225	-34.2848
226	-34.1577
227	-34.0198
228	-33.8689
229	-33.7052
230	-33.5282
231	-33.3378
232	-33.134
233	-32.9168
234	-32.6862
235	-32.442
236	-32.1843
237	-31.913
238	-31.6284
239	-31.3312
240	-31.0215
241	-30.7016
242	-30.3736
243	-30.038
244	-29.696
245	-29.3486
246	-28.9965
247	-28.6403
248	-28.2803
249	-27.9168
250	-27.5508
251	-27.1811
252	-26.8075
253	-26.4292
254	-26.0455
255	-25.6555
256	-25.2582
257	-24.8526
258	-24.4378
259	-24.0132
260	-23.5785
261	-23.133
262	-22.6774
263	-22.2117
264	-21.7359
265	-21.2499
266	-20.7536
267	-20.2462
268	-19.7286
269	-19.2012
270	-18.6648
271	-18.1202
272	-17.5686
273	-17.0108
274	-16.4477
275	-15.8802
276	-15.3089
277	-14.7344
278	-14.1573
279	-13.5777
280	-12.9957
281	-12.4115
282	-11.8254
283	-11.2374
284	-10.6477
285	-10.0567
286	-9.4641
287	-8.86988
288	-8.27378
289	-7.6761
290	-7.07684
291	-6.47598
292	-5.87349
293	-5.26935
294	-4.66353
295	-4.05602
296	-3.44679
297	-2.83582
298	-2.2231
299	-1.60864
300	-0.992352
301	-0.374377
302	0.245181
303	0.866319
304	1.48893
305	2.11289
306	2.73802
307	3.36409
308	3.99084
309	4.61792
310	5.24503
311	5.87158
312	6.49696
313	7.12043
314	7.74112
315	8.3581
316	8.97037
317	9.57698
318	10.1771
319	10.7703
320	11.3561
321	11.9343
322	12.5051
323	13.0688
324	13.6253
325	14.1745
326	14.7166
327	15.251
328	15.7785
329	16.2993
330	16.8144
331	17.3246
332	17.8308
333	18.3339
334	18.8347
335	19.3338
336	19.8316
337	20.3284
338	20.8246
339	21.3195
340	21.8128
341	22.3039
342	22.792
343	23.2762
344	23.7554
345	24.2287
346	24.6942
347	25.1505
348	25.5957
349	26.0297
350	26.452
351	26.8624
352	27.2611
353	27.648
354	28.0232
355	28.3866
356	28.7381
357	29.0777
358	29.4059
359	29.7232
360	30.0298
Phase Current ia
0	-31.0242
1	-30.7058
2	-30.3778
3	-30.0422
4	-29.7002
5	-29.3527
6	-29.0006
7	-28.6444
8	-28.2845
9	-27.921
10	-27.5549
11	-27.1853
12	-26.8116
13	-26.4333
14	-26.0496
15	-25.6596
16	-25.2623
17	-24.8567
18	-24.4419
19	-24.0173
20	-23.5826
21	-23.1371
22	-22.6815
23	-22.2158
24	-21.74
25	-21.254
26	-20.7577
27	-20.2503
28	-19.7327
29	-19.2053
30	-18.6688
31	-18.1243
32	-17.5726
33	-17.0147
34	-16.4517
35	-15.8842
36	-15.3129
37	-14.7383
38	-14.1613
39	-13.5816
40	-12.9996
41	-12.4154
42	-11.8293
43	-11.2413
44	-10.6516
45	-10.0606
46	-9.46798
47	-8.87374
48	-8.27763
49	-7.67994
50	-7.08067
51	-6.4798
52	-5.8773
53	-5.27315
54	-4.66732
55	-4.0598
56	-3.45055
57	-2.83957
58	-2.22685
59	-1.61237
60	-0.996075
61	-0.378087
62	0.241482
63	0.862632
64	1.48526
65	2.10923
66	2.73437
67	3.36045
68	3.98721
69	4.61431
70	5.24143
71	5.86799
72	6.49338
73	7.11686
74	7.73757
75	8.35456
76	8.96684
77	9.57347
78	10.1736
79	10.7668
80	11.3526
81	11.9308
82	12.5017
83	13.0654
84	13.6218
85	14.1711
86	14.7132
87	15.2477
88	15.7751
89	16.296
90	16.8111
91	17.3213
92	17.8275
93	18.3306
94	18.8314
95	19.3305
96	19.8283
97	20.3251
98	20.8214
99	21.3163
100	21.8096
101	22.3007
102	22.7888
103	23.2731
104	23.7522
105	24.2255
106	24.691
107	25.1473
108	25.5925
109	26.0265
110	26.4489
111	26.8593
112	27.258
113	27.6449
114	28.0201
115	28.3835
116	28.735
117	29.0747
118	29.4028
119	29.7201
120	30.0268
121	30.3248
122	30.6164
123	30.9019
124	31.1826
125	31.4591
126	31.7321
127	32.002
128	32.2688
129	32.5324
130	32.7934
131	33.0504
132	33.3021
133	33.5473
134	33.7843
135	34.0113
136	34.2263
137	34.4272
138	34.6126
139	34.7812
140	34.9323
141	35.065
142	35.1803
143	35.2782
144	35.3589
145	35.4222
146	35.468
147	35.495
148	35.5048
149	35.4983
150	35.477
151	35.4426
152	35.3971
153	35.3424
154	35.2802
155	35.2118
156	35.1383
157	35.0605
158	34.9797
159	34.895
160	34.8062
161	34.7132
162	34.6152
163	34.5114
164	34.4008
165	34.2832
166	34.156
167	34.0181
168	33.8672
169	33.7035
170	33.5266
171	33.3362
172	33.1323
173	32.9151
174	32.6845
175	32.4403
176	32.1826
177	31.9113
178	31.6267
179	31.3295
180	31.0199
181	30.6999
182	30.3719
183	30.0363
184	29.6943
185	29.3469
186	28.9948
187	28.6386
188	28.2786
189	27.9151
190	27.549
191	27.1794
192	26.8057
193	26.4275
194	26.0438
195	25.6538
196	25.2565
197	24.8508
198	24.436
199	24.0115
200	23.5768
201	23.1313
202	22.6757
203	22.21
204	21.7342
205	21.2482
206	20.7519
207	20.2445
208	19.7269
209	19.1995
210	18.663
211	18.1185
212	17.5668
213	17.009
214	16.4459
215	15.8784
216	15.3071
217	14.7326
218	14.1556
219	13.5759
220	12.9939
221	12.4097
222	11.8236
223	11.2356
224	10.6459
225	10.0549
226	9.4623
227	8.86808
228	8.27197
229	7.67429
230	7.07503
231	6.47416
232	5.87167
233	5.26753
234	4.66172
235	4.0542
236	3.44497
237	2.834
238	2.22128
239	1.60682
240	0.990529
241	0.372553
242	-0.247006
243	-0.868144
244	-1.49076
245	-2.11472
246	-2.73984
247	-3.36592
248	-3.99267
249	-4.61975
250	-5.24685
251	-5.87341
252	-6.49879
253	-7.12225
254	-7.74295
255	-8.35992
256	-8.97219
257	-9.57881
258	-10.179
259	-10.7721
260	-11.3579
261	-11.9361
262	-12.507
263	-13.0706
264	-13.6271
265	-14.1764
266	-14.7184
267	-15.2528
268	-15.7803
269	-16.3012
270	-16.8162
271	-17.3264
272	-17.8326
273	-18.3357
274	-18.8365
275	-19.3356
276	-19.8334
277	-20.3302
278	-20.8264
279	-21.3213
280	-21.8146
281	-22.3057
282	-22.7938
283	-23.278
284	-23.7571
285	-24.2304
286	-24.6959
287	-25.1522
288	-25.5974
289	-26.0314
290	-26.4537
291	-26.8642
292	-27.2628
293	-27.6497
294	-28.0249
295	-28.3883
296	-28.7398
297	-29.0794
298	-29.4076
299	-29.7249
300	-30.0315
301	-30.3295
302	-30.6211
303	-30.9066
304	-31.1873
305	-31.4638
306	-31.7368
307	-32.0067
308	-32.2735
309	-32.537
310	-32.7981
311	-33.055
312	-33.3067
313	-33.5519
314	-33.7889
315	-34.0159
316	-34.2308
317	-34.4318
318	-34.6172
319	-34.7858
320	-34.9369
321	-35.0695
322	-35.1848
323	-35.2828
324	-35.3634
325	-35.4267
326	-35.4724
327	-35.4995
328	-35.5093
329	-35.5028
330	-35.4814
331	-35.4471
332	-35.4016
333	-35.3469
334	-35.2846
335	-35.2162
336	-35.1427
337	-35.0649
338	-34.9841
339	-34.8994
340	-34.8106
341	-34.7176
342	-34.6196
343	-34.5158
344	-34.4052
345	-34.2875
346	-34.1604
347	-34.0225
348	-33.8716
349	-33.7079
350	-33.5309
351	-33.3405
352	-33.1367
353	-32.9195
354	-32.6888
355	-32.4447
356	-32.1869
357	-31.9156
358	-31.631
359	-31.3339
360	-31.0242
Phase Current ib
0	0.994414
1	0.376112
2	-0.243446
3	-0.864584
4	-1.4872
5	-2.11116
6	-2.73628
7	-3.36236
8	-3.98911
9	-4.61619
10	-5.2433
11	-5.86985
12	-6.49523
13	-7.1187
14	-7.7394
15	-8.35638
16	-8.96864
17	-9.57526
18	-10.1754
19	-10.7686
20	-11.3544
21	-11.9326
22	-12.5034
23	-13.0671
24	-13.6236
25	-14.1728
26	-14.7149
27	-15.2493
28	-15.7768
29	-16.2977
30	-16.8127
31	-17.3229
32	-17.8291
33	-18.3322
34	-18.833
35	-19.3321
36	-19.8299
37	-20.3267
38	-20.823
39	-21.3179
40	-21.8112
41	-22.3022
42	-22.7904
43	-23.2746
44	-23.7537
45	-24.227
46	-24.6925
47	-25.1488
48	-25.594
49	-26.028
50	-26.4503
51	-26.8608
52	-27.2595
53	-27.6464
54	-28.0216
55	-28.385
56	-28.7365
57	-29.0761
58	-29.4043
59	-29.7216
60	-30.0282
61	-30.3262
62	-30.6178
63	-30.9034
64	-31.184
65	-31.4605
66	-31.7335
67	-32.0034
68	-32.2702
69	-32.5338
70	-32.7948
71	-33.0517
72	-33.3035
73	-33.5487
74	-33.7857
75	-34.0127
76	-34.2276
77	-34.4286
78	-34.614
79	-34.7826
80	-34.9337
81	-35.0663
82	-35.1816
83	-35.2796
84	-35.3603
85	-35.4235
86	-35.4693
87	-35.4964
88	-35.5061
89	-35.4996
90	-35.4783
91	-35.4439
92	-35.3984
93	-35.3437
94	-35.2815
95	-35.213
96	-35.1396
97	-35.0618
98	-34.981
99	-34.8963
100	-34.8075
101	-34.7144
102	-34.6164
103	-34.5127
104	-34.4021
105	-34.2844
106	-34.1573
107	-34.0194
108	-33.8685
109	-33.7048
110	-33.5278
111	-33.3374
112	-33.1336
113	-32.9163
114	-32.6857
115	-32.4416
116	-32.1838
117	-31.9125
118	-31.6279
119	-31.3308
120	-31.0211
121	-30.7011
122	-30.3731
123	-30.0375
124	-29.6955
125	-29.3481
126	-28.996
127	-28.6398
128	-28.2798
129	-27.9163
130	-27.5502
131	-27.1806
132	-26.8069
133	-26.4286
134	-26.045
135	-25.6549
136	-25.2576
137	-24.852
138	-24.4372
139	-24.0126
140	-23.5779
141	-23.1324
142	-22.6768
143	-22.2111
144	-21.7353
145	-21.2493
146	-20.7529
147	-20.2456
148	-19.7279
149	-19.2005
150	-18.6641
151	-18.1195
152	-17.5678
153	-17.01
154	-16.447
155	-15.8794
156	-15.3081
157	-14.7336
158	-14.1565
159	-13.5769
160	-12.9948
161	-12.4107
162	-11.8245
163	-11.2366
164	-10.6469
165	-10.0559
166	-9.46323
167	-8.869
168	-8.27288
169	-7.6752
170	-7.07593
171	-6.47506
172	-5.87256
173	-5.26841
174	-4.66258
175	-4.05506
176	-3.44582
177	-2.83484
178	-2.22211
179	-1.60764
180	-0.991347
181	-0.373363
182	0.246204
183	0.86735
184	1.48997
185	2.11394
186	2.73907
187	3.36516
188	3.99191
189	4.619
190	5.24612
191	5.87268
192	6.49806
193	7.12154
194	7.74224
195	8.35923
196	8.9715
197	9.57812
198	10.1783
199	10.7714
200	11.3573
201	11.9354
202	12.5063
203	13.07
204	13.6264
205	14.1757
206	14.7178
207	15.2522
208	15.7797
209	16.3005
210	16.8156
211	17.3258
212	17.832
213	18.3351
214	18.8359
215	19.335
216	19.8328
217	20.3296
218	20.8259
219	21.3208
220	21.8141
221	22.3051
222	22.7933
223	23.2775
224	23.7566
225	24.2299
226	24.6954
227	25.1517
228	25.5969
229	26.0309
230	26.4532
231	26.8637
232	27.2623
233	27.6493
234	28.0244
235	28.3878
236	28.7393
237	29.079
238	29.4071
239	29.7244
240	30.031
241	30.329
242	30.6206
243	30.9062
244	31.1868
245	31.4633
246	31.7363
247	32.0062
248	32.273
249	32.5366
250	32.7976
251	33.0545
252	33.3063
253	33.5515
254	33.7885
255	34.0154
256	34.2304
257	34.4314
258	34.6167
259	34.7853
260	34.9364
261	35.0691
262	35.1844
263	35.2823
264	35.363
265	35.4263
266	35.472
267	35.4991
268	35.5089
269	35.5024
270	35.481
271	35.4467
272	35.4012
273	35.3465
274	35.2842
275	35.2158
276	35.1423
277	35.0645
278	34.9837
279	34.899
280	34.8103
281	34.7172
282	34.6192
283	34.5154
284	34.4048
285	34.2872
286	34.16
287	34.0221
288	33.8712
289	33.7075
290	33.5306
291	33.3402
292	33.1363
293	32.9191
294	32.6885
295	32.4443
296	32.1866
297	31.9153
298	31.6307
299	31.3335
300	31.0238
301	30.7039
302	30.3759
303	30.0403
304	29.6983
305	29.3509
306	28.9988
307	28.6426
308	28.2826
309	27.9191
310	27.553
311	27.1834
312	26.8097
313	26.4315
314	26.0478
315	25.6578
316	25.2604
317	24.8548
318	24.44
319	24.0155
320	23.5808
321	23.1352
322	22.6796
323	22.214
324	21.7382
325	21.2521
326	20.7558
327	20.2485
328	19.7308
329	19.2034
330	18.667
331	18.1225
332	17.5708
333	17.013
334	16.4499
335	15.8824
336	15.3111
337	14.7365
338	14.1595
339	13.5799
340	12.9978
341	12.4137
342	11.8275
343	11.2396
344	10.6499
345	10.0589
346	9.46624
347	8.87202
348	8.2759
349	7.67822
350	7.07896
351	6.47809
352	5.8756
353	5.27145
354	4.66563
355	4.05811
356	3.44887
357	2.8379
358	2.22518
359	1.61071
360	0.994414
Phase Current ic
